Timestamp (s),Angle (deg)
0.00053,-19.9512
0.00053,-19.9512
0.00053,-19.9512
0.00053,-19.9512
0.00053,-19.9512
0.00053,-19.9512
0.00359,-19.9512
0.00359,-19.8633
0.00456,-19.8633
0.00506,-19.8633
0.00506,-19.8633
0.00564,-19.8633
0.00564,-19.8633
0.00617,-19.7754
0.0067,-19.6875
0.00723,-19.6875
0.00779,-19.6875
0.0081,-19.6875
0.00868,-19.6875
0.00922,-19.6875
0.00922,-19.6875
0.00974,-19.6875
0.01028,-19.6875
0.01068,-19.6875
0.01136,-19.6875
0.01223,-19.6875
0.01342,-19.6875
0.01396,-19.6875
0.01453,-19.6875
0.01508,-19.6875
0.01614,-19.6875
0.01685,-19.6875
0.01685,-19.6875
0.01742,-19.6875
0.01796,-19.6875
0.0185,-19.6875
0.01903,-19.6875
0.01961,-19.6875
0.02016,-19.6875
0.02016,-19.6875
0.0207,-19.6875
0.02123,-19.6875
0.02172,-19.6875
0.02214,-19.6875
0.02267,-19.6875
0.02267,-19.6875
0.02322,-19.6875
0.02371,-19.6875
0.02371,-19.5996
0.02425,-19.5996
0.02478,-19.5996
0.02531,-19.5996
0.02584,-19.5996
0.02584,-19.5996
0.02636,-19.5996
0.02689,-19.6875
0.02743,-19.6875
0.02796,-19.6875
0.02849,-19.8633
0.02911,-19.8633
0.02982,-19.8633
0.03042,-19.8633
0.03099,-19.8633
0.03154,-19.8633
0.03154,-19.8633
0.03217,-19.8633
0.03272,-19.8633
0.03272,-19.8633
0.03325,-19.8633
0.03325,-19.9512
0.03376,-19.9512
0.03376,-19.9512
0.03437,-19.9512
0.03437,-19.9512
0.03538,-19.9512
0.03538,-19.9512
0.06078,-19.9512
0.08209,-19.9512
0.11455,-19.9512
0.14187,-19.9512
0.16845,-19.9512
0.19379,-19.9512
0.22379,-19.9512
0.24854,-19.9512
0.27617,-19.9512
0.3028,-19.9512
0.32732,-19.9512
0.35836,-19.9512
0.38203,-19.9512
0.41156,-19.9512
0.43743,-19.9512
0.46577,-19.9512
0.49241,-19.9512
0.51721,-19.9512
0.54484,-19.9512
0.57349,-19.9512
0.60004,-19.9512
0.62712,-19.9512
0.64874,-19.9512
0.68102,-19.9512
0.70893,-19.9512
0.73429,-19.9512
0.76044,-19.9512
0.79046,-19.9512
0.81417,-19.9512
0.84353,-19.9512
0.86923,-19.9512
0.89476,-19.9512
0.92449,-19.9512
0.94819,-19.9512
0.97662,-19.9512
1.00104,-19.9512
1.03188,-19.9512
1.05874,-19.9512
1.0842,-19.9512
1.10905,-19.9512
1.14036,-19.9512
1.16516,-19.9512
1.19332,-19.9512
1.22088,-19.9512
1.24561,-19.9512
1.27448,-19.9512
1.29695,-19.9512
1.32855,-19.9512
1.34877,-19.9512
1.3828,-19.9512
1.40947,-19.9512
1.43145,-19.9512
1.45924,-19.9512
1.49078,-19.9512
1.51569,-19.8633
1.54386,-19.8633
1.56612,-19.8633
1.59763,-19.8633
1.62544,-19.8633
1.64925,-19.8633
1.6798,-19.8633
1.70613,-19.8633
1.7257,-19.8633
1.75862,-19.8633
1.78186,-19.7754
1.81395,-19.7754
1.84146,-19.6875
1.86499,-19.6875
1.89349,-19.6875
1.92282,-19.6875
1.94906,-19.6875
1.97569,-19.6875
1.99999,-19.6875
2.03035,-19.6875
2.05794,-19.6875
2.08243,-19.6875
2.10995,-19.6875
2.13932,-19.5996
2.16322,-19.5996
2.192,-19.5996
2.21849,-19.5996
2.24595,-19.5996
2.27325,-19.5996
2.30063,-19.5996
2.32692,-19.5996
2.35306,-19.5996
2.38076,-19.5996
2.40796,-19.5996
2.43093,-19.5996
2.45795,-19.5996
2.48821,-19.5996
2.51275,-19.5996
2.5432,-19.5996
2.56754,-19.5996
2.59669,-19.5996
2.62398,-19.5996
2.64221,-19.5996
2.67822,-19.5996
2.7054,-19.5996
2.7269,-19.5996
2.75871,-19.5996
2.77891,-19.6875
2.81251,-19.6875
2.83934,-19.6875
2.86424,-19.6875
2.89277,-19.6875
2.92126,-19.6875
2.94637,-19.6875
2.97474,-19.6875
2.99637,-19.6875
3.0256,-19.6875
3.04822,-19.6875
3.07518,-19.6875
3.10929,-19.6875
3.13673,-19.7754
3.16336,-19.6875
3.19058,-19.6875
3.21493,-19.5996
3.24427,-19.5996
3.2709,-19.5117
3.29716,-19.5117
3.32493,-19.5117
3.34974,-19.4238
3.37948,-19.3359
3.4057,-19.3359
3.43164,-19.3359
3.45877,-19.248
3.48803,-19.3359
3.51266,-19.5117
3.54096,-19.5117
3.56632,-19.5117
3.59208,-19.5117
3.62221,-19.5996
3.64715,-19.5996
3.67592,-19.5996
3.70398,-19.6875
3.72827,-19.6875
3.75634,-19.6875
3.77911,-19.8633
3.81004,-19.8633
3.83719,-19.8633
3.86433,-19.8633
3.89128,-19.9512
3.91558,-19.9512
3.94483,-19.9512
3.9729,-19.9512
3.99757,-19.9512
4.0268,-19.9512
4.05417,-19.9512
4.0808,-20.0391
4.10763,-20.0391
4.13085,-20.0391
4.15752,-20.127
4.18892,-20.2148
4.21215,-20.3027
4.24129,-20.3027
4.27011,-20.3906
4.29612,-20.3906
4.32287,-20.3906
4.34643,-20.4785
4.37318,-20.5664
4.40395,-20.5664
4.42822,-20.6543
4.4575,-20.6543
4.47728,-20.6543
4.51107,-20.7422
4.53983,-20.7422
4.56297,-20.8301
4.59077,-20.918
4.62003,-20.918
4.6467,-20.918
4.67422,-21.0059
4.69616,-21.0059
4.72804,-21.0059
4.75534,-21.0938
4.77905,-21.0938
4.80911,-21.0938
4.83659,-21.0938
4.86219,-21.1816
4.88931,-21.2695
4.91426,-21.2695
4.94385,-21.2695
4.97079,-21.2695
4.99816,-21.2695
5.02408,-21.2695
5.04495,-21.2695
5.07668,-21.2695
5.10497,-21.2695
5.1276,-21.2695
5.15938,-21.2695
5.18632,-21.2695
5.21098,-21.2695
5.24022,-21.2695
5.26152,-21.2695
5.28915,-21.2695
5.3208,-21.2695
5.34665,-21.1816
5.37305,-21.1816
5.4021,-21.1816
5.42725,-21.1816
5.4556,-21.1816
5.47832,-21.1816
5.51029,-21.1816
5.53693,-21.1816
5.56286,-21.1816
5.58969,-21.1816
5.61878,-21.1816
5.64291,-21.1816
5.67191,-21.1816
5.69455,-21.1816
5.72651,-21.1816
5.75332,-21.1816
5.77663,-21.1816
5.80672,-21.1816
5.82789,-21.1816
5.85975,-21.1816
5.88747,-21.1816
5.91087,-21.1816
5.94112,-21.1816
5.96882,-21.1816
5.99508,-21.1816
6.02274,-21.1816
6.04592,-21.1816
6.07748,-21.1816
6.10407,-21.0938
6.12742,-21.0938
6.1572,-21.0938
6.18531,-21.0938
6.21076,-21.0938
6.23836,-21.0938
6.26788,-21.0938
6.29062,-21.0938
6.31862,-21.0938
6.34266,-21.0938
6.37186,-21.0938
6.3925,-21.0938
6.42645,-21.0938
6.4539,-21.0938
6.47823,-21.0938
6.50507,-21.0938
6.53568,-21.0938
6.56081,-21.0938
6.58926,-21.0938
6.61542,-21.0938
6.64263,-21.0938
6.66916,-21.0938
6.69247,-21.0938
6.72341,-21.0938
6.75146,-21.0938
6.77757,-21.0938
6.80404,-21.0938
6.82491,-21.0938
6.85909,-21.0938
6.8856,-21.0938
6.91012,-21.0938
6.93981,-21.0938
6.96761,-21.0938
6.99196,-21.0938
7.02015,-21.0938
7.04419,-21.0938
7.07456,-21.0938
7.10206,-21.0059
7.12485,-20.3027
7.15475,-17.1387
7.17647,-9.4043
7.20774,0.4395
7.23439,4.834
7.25998,1.6699
7.28571,-1.3184
7.30961,-0.791
7.33637,0.7031
7.36263,1.0547
7.38735,0.3516
7.41056,0.3516
7.43821,0.4395
7.46225,0.4395
7.49034,0.4395
7.51694,0.3516
7.54173,0.3516
7.56822,0.3516
7.59312,0.2637
7.61865,0.3516
7.64308,0.4395
7.67056,0.4395
7.69226,0.3516
7.72127,0.3516
7.74366,0.4395
7.77305,0.4395
7.8,0.4395
7.82419,0.3516
7.85029,0.4395
7.87491,0.4395
7.90203,0.4395
7.92616,0.3516
7.95217,0.3516
7.97592,0.5273
8.00449,0.4395
8.02781,0.4395
8.05309,0.4395
8.07463,0.4395
8.10759,0.4395
8.13356,0.4395
8.15898,0.4395
8.18438,0.5273
8.20996,0.5273
8.2353,0.4395
8.25862,0.4395
8.28717,0.4395
8.3089,0.4395
8.33827,0.4395
8.36209,0.4395
8.38996,0.4395
8.41618,0.5273
8.44119,0.4395
8.46648,0.4395
8.49166,0.4395
8.5182,0.4395
8.54257,0.4395
8.56862,0.4395
8.59099,0.3516
8.61874,0.3516
8.64387,0.4395
8.67323,0.3516
8.69235,0.4395
8.72369,0.4395
8.74951,0.4395
8.77507,0.4395
8.8008,0.4395
8.82403,0.4395
8.85178,0.4395
8.87457,0.4395
8.90249,0.4395
8.92518,0.4395
8.95458,0.4395
8.97777,0.4395
9.00657,0.4395
9.03215,0.4395
9.05701,0.4395
9.08311,0.4395
9.10696,0.4395
9.13516,0.4395
9.15854,0.4395
9.18563,0.4395
9.20762,0.4395
9.23639,0.4395
9.2556,0.4395
9.28921,0.4395
9.31529,0.4395
9.33993,0.4395
9.36564,0.4395
9.39175,0.4395
9.41669,0.4395
9.44212,0.4395
9.46807,0.4395
9.49338,0.3516
9.51979,0.4395
9.54471,0.4395
9.56982,0.3516
9.59217,0.4395
9.62209,0.4395
9.64874,0.4395
9.67335,0.4395
9.69971,0.4395
9.7232,0.4395
9.75066,0.5273
9.77549,0.4395
9.80524,0.4395
9.82683,0.4395
9.85367,0.3516
9.8752,0.4395
9.9047,0.4395
9.92406,0.4395
9.95637,0.4395
9.98171,0.4395
10.00678,0.4395
10.03375,0.4395
10.05898,0.4395
10.0851,0.4395
10.10627,0.4395
10.13605,0.5273
10.15588,0.4395
10.18426,0.3516
10.20556,0.4395
10.23893,0.4395
10.25766,0.4395
10.29082,0.4395
10.31587,0.4395
10.34171,0.4395
10.36668,0.4395
10.38961,0.4395
10.41875,0.4395
10.44018,0.4395
10.4683,0.4395
10.49042,0.4395
10.52105,0.4395
10.54777,0.4395
10.5681,0.4395
10.59853,0.4395
10.62233,0.3516
10.65005,0.4395
10.67188,0.4395
10.70015,0.4395
10.72127,0.4395
10.75107,0.4395
10.77309,0.4395
10.80469,0.4395
10.82449,0.4395
10.8513,0.4395
10.87395,0.4395
10.90561,0.4395
10.93198,0.4395
10.95704,0.4395
10.98389,0.3516
11.00787,0.3516
11.03474,0.4395
11.0606,0.4395
11.08548,0.4395
11.10479,0.3516
11.13783,0.3516
11.16392,0.4395
11.1887,0.4395
11.2147,0.4395
11.23881,0.4395
11.26636,0.3516
11.28832,0.4395
11.31759,0.4395
11.34211,0.4395
11.36627,0.4395
11.39243,0.4395
11.42017,0.4395
11.44704,0.4395
11.46652,0.3516
