Timestamp (s),Angle (deg)
0.0,-4.1309
0.0,-4.1309
0.0,-4.1309
0.00326,-4.1309
0.00326,-4.2188
0.00465,-4.3066
0.00465,-4.3066
0.00465,-4.3066
0.00465,-4.3945
0.00465,-4.3066
0.00705,-4.3945
0.00705,-4.3945
0.00796,-4.3945
0.00796,-4.4824
0.00905,-4.5703
0.00905,-4.5703
0.0101,-4.6582
0.0101,-4.7461
0.01098,-4.9219
0.01143,-4.9219
0.01181,-5.0977
0.01181,-5.1855
0.01181,-5.3613
0.01181,-5.4492
0.01476,-5.625
0.01476,-5.8008
0.01476,-5.9766
0.01663,-6.2402
0.01663,-6.416
0.01766,-6.5918
0.01766,-6.8555
0.01877,-7.0312
0.01877,-7.2949
0.01877,-7.4707
0.01976,-7.6465
0.01976,-7.8223
0.02077,-7.9102
0.02077,-8.0859
0.02177,-8.2617
0.02177,-8.3496
0.02229,-8.5254
0.02296,-8.7012
0.02397,-8.7891
0.02397,-8.9648
0.02469,-9.1406
0.02469,-9.3164
0.02554,-9.4922
0.02554,-9.668
0.02554,-9.7559
0.02675,-9.9316
0.02675,-10.1074
0.02778,-10.2832
0.02838,-10.459
0.02876,-10.6348
0.02876,-10.8105
0.02993,-10.9863
0.02993,-11.1621
0.03037,-11.3379
0.03075,-11.5137
0.03075,-11.6895
0.03075,-11.9531
0.03075,-12.1289
0.03211,-12.2168
0.03246,-12.4805
0.03291,-12.6562
0.03393,-12.832
0.03493,-13.0957
0.03493,-13.2715
0.03588,-13.3594
0.03588,-13.623
0.03588,-13.7109
0.03812,-13.8867
0.03812,-14.0625
0.03812,-14.1504
0.03914,-14.2383
0.03914,-14.4141
0.03914,-14.502
0.03914,-14.5898
0.05098,-14.6777
0.07639,-14.6777
0.10372,-14.7656
0.12517,-14.8535
0.15831,-14.9414
0.18593,-15.0293
0.21118,-15.1172
0.23802,-15.2051
0.26705,-15.293
0.29322,-15.293
0.32068,-15.3809
0.34525,-15.4688
0.37441,-15.5566
0.40111,-15.6445
0.42419,-15.6445
0.45411,-15.7324
0.48337,-15.8203
0.50343,-15.9082
0.53493,-15.9082
0.55767,-15.9961
0.5898,-16.084
0.6169,-16.084
0.64217,-16.2598
0.67128,-16.3477
0.69821,-16.3477
0.7242,-16.4355
0.74984,-16.5234
0.77501,-16.5234
0.80605,-16.6113
0.83379,-16.7871
0.85754,-16.7871
0.88603,-16.875
0.90993,-16.9629
0.94045,-17.0508
0.96708,-17.1387
0.99219,-17.3145
1.02199,-17.3145
1.04954,-17.4902
1.07548,-17.5781
1.10252,-17.666
1.12212,-17.7539
1.15604,-17.8418
1.18264,-18.0176
1.20403,-18.1055
1.23736,-18.1934
1.25543,-18.2812
1.28919,-18.3691
1.31868,-18.3691
1.34408,-18.5449
1.37194,-18.6328
1.39983,-18.7207
1.42074,-18.8965
1.45213,-19.0723
1.47469,-19.1602
1.50725,-19.248
1.53366,-19.3359
1.5574,-19.4238
1.58524,-19.5996
1.61572,-19.6875
1.64162,-19.7754
1.66941,-19.8633
1.68976,-20.0391
1.72288,-20.2148
1.74964,-20.3027
1.77491,-20.3906
1.80367,-20.5664
1.82396,-20.6543
1.85816,-20.7422
1.88545,-20.8301
1.91109,-20.918
1.93844,-21.0059
1.96639,-21.1816
1.99213,-21.1816
2.01909,-21.2695
2.04449,-21.4453
2.07399,-21.5332
2.10107,-21.6211
2.12229,-21.709
2.15191,-21.8848
2.18243,-21.9727
2.20767,-22.0605
2.23582,-22.2363
2.25742,-22.4121
2.28907,-22.5
2.31671,-22.5879
2.34239,-22.7637
2.36937,-22.9395
2.39839,-23.0273
2.4246,-23.2031
2.45166,-23.3789
2.47737,-23.4668
2.50224,-23.5547
2.53259,-23.7305
2.55558,-23.8184
2.58622,-23.9062
2.61431,-24.082
2.64074,-24.1699
2.66731,-24.2578
2.69291,-24.3457
2.7181,-24.5215
2.74789,-24.6094
2.77315,-24.6973
2.8016,-24.7852
2.82397,-24.873
2.85544,-24.9609
2.88197,-25.1367
2.91028,-25.2246
2.93678,-25.3125
2.96383,-25.4883
2.99018,-25.5762
3.01732,-25.6641
3.04025,-25.752
3.07147,-25.8398
3.09864,-25.9277
3.12353,-26.1035
3.1528,-26.1035
3.18087,-26.2793
3.20705,-26.3672
3.23397,-26.4551
3.25804,-26.543
3.28886,-26.6309
3.31513,-26.7188
3.34,-26.8066
3.36711,-26.8945
3.38833,-26.9824
3.41794,-27.0703
3.44893,-27.1582
3.4741,-27.2461
3.50034,-27.334
3.53051,-27.4219
3.55771,-27.5098
3.58405,-27.5977
3.60907,-27.6855
3.63817,-27.7734
3.66574,-27.8613
3.68966,-27.9492
3.71781,-28.0371
3.74699,-28.125
3.77336,-28.2129
3.79976,-28.3008
3.82364,-28.3887
3.85376,-28.5645
3.88203,-28.6523
3.90666,-28.7402
3.93484,-28.8281
3.96189,-28.916
3.9874,-29.0039
4.01543,-29.0918
4.0399,-29.0918
4.06738,-29.1797
4.09663,-29.1797
4.12311,-29.2676
4.15076,-29.2676
4.17188,-29.2676
4.20479,-29.2676
4.23136,-29.2676
4.25868,-29.3555
4.28553,-29.3555
4.31327,-29.3555
4.33939,-29.4434
4.3671,-29.4434
4.38776,-29.4434
4.42014,-29.4434
4.44775,-29.5312
4.47156,-29.4434
4.50043,-29.4434
4.52926,-29.5312
4.55553,-29.5312
4.58249,-29.4434
4.60516,-29.4434
4.63321,-29.5312
4.66384,-29.4434
4.68963,-29.5312
4.71756,-29.5312
4.74169,-29.4434
4.77183,-29.4434
4.79804,-29.5312
4.81908,-29.4434
4.84992,-29.4434
4.87899,-29.5312
4.90261,-29.4434
4.93289,-29.4434
4.95503,-29.5312
4.9863,-29.4434
5.01343,-29.5312
5.0368,-29.5312
5.06745,-29.4434
5.09506,-29.4434
5.12162,-29.5312
5.14814,-29.5312
5.16916,-29.5312
5.20345,-29.5312
5.23,-29.5312
5.25374,-29.5312
5.28179,-29.5312
5.31175,-29.5312
5.33649,-29.5312
5.36419,-29.5312
5.3907,-29.5312
5.41961,-29.5312
5.4465,-29.5312
5.47085,-29.5312
5.49899,-29.5312
5.52253,-29.5312
5.55282,-29.5312
5.58055,-29.5312
5.60417,-29.5312
5.63434,-29.5312
5.66193,-29.5312
5.68759,-29.5312
5.71441,-29.6191
5.73562,-29.5312
5.7697,-29.6191
5.79685,-29.6191
5.82037,-29.6191
5.84916,-29.5312
5.87847,-29.6191
5.90368,-29.6191
5.9314,-29.6191
5.95496,-29.6191
5.98522,-29.6191
6.0115,-29.6191
6.0373,-29.6191
6.06548,-29.6191
6.09287,-29.6191
6.11826,-29.6191
6.14736,-29.6191
6.17109,-29.6191
6.20025,-29.6191
6.22068,-29.6191
6.25394,-29.6191
6.28131,-29.6191
6.30883,-29.6191
6.33441,-29.6191
6.36282,-29.6191
6.38851,-29.6191
6.41714,-29.6191
6.44447,-29.6191
6.47008,-29.6191
6.49702,-29.6191
6.51848,-29.6191
6.55167,-29.6191
6.57865,-29.6191
6.60031,-29.6191
6.63025,-29.6191
6.66048,-29.6191
6.68498,-29.6191
6.713,-29.6191
6.73979,-29.6191
6.76795,-29.6191
6.7942,-29.6191
6.82103,-29.707
6.84716,-29.707
6.86947,-29.707
6.90122,-29.707
6.92968,-29.7949
6.95389,-29.7949
6.98115,-29.7949
7.01051,-29.7949
7.03591,-29.7949
7.06434,-29.7949
7.08874,-29.7949
7.11467,-29.7949
7.14466,-29.7949
7.17016,-29.7949
7.19721,-29.7949
7.22693,-29.7949
7.25234,-29.7949
7.27855,-29.7949
7.30723,-29.8828
7.3329,-29.8828
7.36071,-29.8828
7.38402,-29.8828
7.41314,-29.9707
7.43854,-29.9707
7.46869,-29.9707
7.49581,-29.9707
7.51771,-29.9707
7.54936,-29.9707
7.57619,-29.9707
7.60186,-29.9707
7.63009,-29.9707
7.65559,-29.9707
7.68385,-29.9707
7.71088,-29.9707
7.73476,-29.9707
7.76496,-29.9707
7.79296,-30.0586
7.81236,-30.0586
7.84615,-30.0586
7.86935,-30.0586
7.90056,-30.0586
7.92766,-30.0586
7.95217,-30.0586
7.97928,-30.0586
8.00913,-30.0586
8.03444,-30.0586
8.06239,-30.0586
8.08439,-30.0586
8.11232,-30.0586
8.14363,-30.0586
8.16724,-30.0586
8.19644,-30.0586
8.21654,-30.0586
8.25082,-30.0586
8.27801,-30.0586
8.30276,-30.0586
8.32987,-30.1465
8.35944,-30.0586
8.38326,-30.0586
8.41249,-30.1465
8.43632,-30.1465
8.46538,-30.0586
8.4936,-30.1465
8.52103,-30.0586
8.54534,-30.0586
8.5754,-30.1465
8.60119,-30.0586
8.62919,-30.0586
8.65101,-30.0586
8.67854,-30.0586
8.70991,-30.0586
8.73371,-30.0586
8.76229,-30.0586
8.78308,-30.0586
8.81676,-30.0586
8.84433,-30.0586
8.8688,-30.0586
8.89859,-30.0586
8.92555,-30.0586
8.95118,-30.0586
8.9779,-30.0586
9.00158,-30.0586
9.03367,-30.0586
9.05956,-30.0586
9.08361,-30.1465
9.11159,-30.1465
9.14195,-30.0586
9.16706,-30.0586
9.19429,-30.0586
9.21602,-30.0586
9.24971,-30.0586
9.27612,-30.0586
9.30349,-30.0586
9.33051,-30.0586
9.34929,-30.0586
9.38144,-30.0586
9.41089,-30.0586
9.4366,-30.0586
9.46443,-30.0586
9.49144,-30.0586
9.51886,-30.0586
9.54351,-30.0586
9.56645,-30.0586
9.60014,-30.0586
9.62637,-30.0586
9.64422,-30.0586
9.67677,-30.0586
9.70752,-30.0586
9.72922,-30.0586
9.76204,-30.0586
9.78475,-30.0586
9.81056,-30.0586
9.84265,-30.0586
9.86698,-30.0586
9.89356,-30.0586
9.92408,-30.0586
9.94959,-30.0586
9.97782,-30.0586
10.00352,-30.0586
10.02705,-30.0586
10.05888,-30.0586
10.08565,-30.0586
10.11085,-30.0586
10.13572,-30.0586
10.16116,-30.0586
10.19288,-30.0586
10.21508,-30.0586
10.24742,-30.0586
10.27401,-30.0586
10.30086,-30.0586
10.32759,-30.0586
10.35033,-30.0586
10.38178,-30.0586
10.40932,-30.0586
10.43501,-30.0586
10.45968,-30.0586
10.49055,-30.0586
10.51534,-30.0586
10.54385,-30.0586
10.56585,-30.0586
10.59743,-29.9707
10.6243,-30.0586
10.65158,-30.0586
10.67856,-30.0586
10.70167,-29.9707
10.73053,-30.0586
10.75977,-30.0586
10.78414,-29.9707
10.81029,-30.0586
10.84079,-30.0586
10.86643,-29.9707
10.89265,-30.0586
10.91632,-30.0586
10.94842,-30.0586
10.97575,-30.0586
11.00199,-30.0586
11.02907,-30.0586
11.0564,-29.9707
11.0814,-30.0586
11.11003,-30.0586
11.13281,-29.9707
11.16319,-30.0586
11.19062,-30.0586
11.21472,-29.9707
11.24177,-30.0586
11.273,-30.0586
11.29839,-30.0586
11.32552,-29.9707
11.34777,-29.9707
11.3806,-29.8828
11.40749,-29.0918
11.43405,-24.6094
11.46049,-13.0078
11.48459,1.7578
11.51393,10.3711
11.5396,9.7559
11.56481,4.2188
11.59067,-0.8789
11.61485,-3.7793
11.64174,-4.2188
11.66758,-3.0762
11.69339,-1.3184
11.71871,0.4395
11.74447,1.8457
11.76529,2.4609
11.79603,2.4609
11.8161,2.1094
11.84579,1.6699
11.87359,1.4062
11.89722,1.3184
11.92466,1.3184
11.94768,1.4062
11.97553,1.4062
11.99983,1.4941
12.02717,1.4941
12.04843,1.4941
12.07797,1.4062
12.10442,1.4062
12.13015,1.4062
12.15553,1.4062
12.1816,1.4941
12.20725,1.4941
12.23188,1.4062
12.25894,1.4062
12.28044,1.4062
12.30843,1.4062
12.33358,1.4062
12.36109,1.4062
12.38234,1.4941
12.41283,1.4062
12.43883,1.4062
12.46426,1.4941
12.48947,1.4941
12.51394,1.4941
12.5406,1.4941
12.5614,1.4941
12.59236,1.4062
12.61415,1.4062
12.64409,1.4941
12.66216,1.4941
12.69502,1.4941
12.72199,1.4941
12.74642,1.4941
12.77182,1.4941
12.79735,1.4941
12.82387,1.4941
12.84786,1.4941
12.87462,1.4062
12.89853,1.4941
12.92626,1.4941
12.94817,1.4941
12.97766,1.4062
12.99803,1.4062
13.02832,1.4941
13.05501,1.4941
13.07973,1.4941
13.10591,1.4062
13.12962,1.4941
13.15784,1.4062
13.18209,1.4062
13.20927,1.4941
13.23457,1.4941
13.25826,1.4941
13.2837,1.4941
13.31184,1.4941
13.33785,1.4062
13.36224,1.4062
13.38882,1.4062
13.4135,1.4062
13.43996,1.4941
13.4663,1.4941
13.49041,1.4941
13.51558,1.4941
13.54236,1.4941
13.56458,1.4941
13.5939,1.4941
13.61259,1.4941
13.64503,1.4941
13.67202,1.4941
13.69533,1.4941
13.7219,1.4941
13.7476,1.4941
13.77402,1.4941
13.79717,1.4941
13.82446,1.4941
13.84793,1.4941
13.8751,1.4941
13.90024,1.4941
13.92806,1.4062
13.95334,1.4062
13.97925,1.4941
14.00516,1.4941
14.02937,1.4941
14.05656,1.4941
14.0813,1.4941
14.10711,1.4062
14.12875,1.4062
14.15877,1.4062
14.18141,1.4941
14.21006,1.4941
14.23719,1.4941
14.26224,1.4941
14.28748,1.4941
14.31288,1.4941
14.33897,1.4941
14.36124,1.4062
14.39006,1.4062
14.41236,1.4941
14.44085,1.4941
14.46375,1.4941
14.49307,1.4062
14.51197,1.4062
14.54402,1.4941
14.5699,1.4941
14.5947,1.4941
14.62105,1.4062
14.64629,1.4062
14.67205,1.4062
14.69392,1.4941
14.72246,1.4941
14.74539,1.4941
14.77505,1.4941
14.79731,1.4941
14.8269,1.4941
14.85277,1.4062
14.8787,1.4062
14.90402,1.3184
14.92657,1.4062
14.95504,1.4062
14.97963,1.4062
15.00594,1.4062
15.03144,1.4062
15.05796,1.4941
15.07806,1.4941
15.10923,1.4941
15.13636,1.4941
15.16102,1.4062
15.18624,1.4062
15.21273,1.4062
