Timestamp (s),Angle (deg)
0.0,-9.7559
0.00255,-9.7559
0.00255,-9.7559
0.00255,-9.7559
0.00537,-9.7559
0.00537,-9.7559
0.0072,-9.7559
0.0072,-9.7559
0.00905,-9.7559
0.00905,-9.7559
0.01011,-9.7559
0.01059,-9.7559
0.01059,-9.7559
0.01164,-9.7559
0.01164,-9.7559
0.01164,-9.7559
0.01316,-9.7559
0.01316,-9.7559
0.01473,-9.7559
0.01473,-9.7559
0.01473,-9.7559
0.01473,-9.8438
0.01473,-9.8438
0.01473,-9.8438
0.01473,-9.8438
0.01922,-9.8438
0.01922,-9.8438
0.02054,-9.8438
0.02054,-9.8438
0.02157,-9.8438
0.02157,-9.8438
0.02157,-9.8438
0.02305,-9.8438
0.02305,-9.8438
0.02449,-9.8438
0.02449,-9.8438
0.02548,-9.8438
0.026,-9.8438
0.02702,-9.8438
0.02702,-9.8438
0.02802,-9.8438
0.02873,-9.8438
0.02873,-9.8438
0.02974,-9.8438
0.02974,-9.8438
0.02974,-9.8438
0.03076,-9.8438
0.03076,-9.8438
0.03076,-9.8438
0.03076,-9.8438
0.03076,-9.8438
0.03076,-9.8438
0.03076,-9.8438
0.03076,-9.8438
0.03358,-9.8438
0.03358,-9.8438
0.0346,-9.8438
0.0348,-9.8438
0.0348,-9.8438
0.0348,-9.8438
0.03602,-9.8438
0.03602,-9.8438
0.03602,-9.8438
0.03704,-9.8438
0.03704,-9.8438
0.03816,-9.8438
0.03912,-9.8438
0.03912,-9.7559
0.04022,-9.7559
0.04127,-9.7559
0.04127,-9.7559
0.04229,-9.7559
0.04297,-9.7559
0.04342,-9.7559
0.04342,-9.7559
0.04342,-9.7559
0.04444,-9.7559
0.04444,-9.7559
0.04444,-9.8438
0.04549,-9.8438
0.05415,-9.8438
0.07949,-9.8438
0.10568,-9.8438
0.1298,-9.8438
0.15749,-9.8438
0.18087,-9.8438
0.20859,-9.8438
0.23152,-9.8438
0.25883,-9.8438
0.2811,-9.8438
0.3085,-9.8438
0.33781,-9.8438
0.36207,-9.8438
0.38856,-9.8438
0.41412,-9.8438
0.43988,-9.8438
0.46474,-9.8438
0.49076,-9.8438
0.51522,-9.8438
0.54194,-9.8438
0.56356,-9.8438
0.59359,-9.8438
0.6191,-9.8438
0.64293,-9.7559
0.67067,-9.7559
0.69477,-9.7559
0.7217,-9.7559
0.74662,-9.7559
0.77221,-9.7559
0.79493,-9.7559
0.82501,-9.7559
0.84782,-9.7559
0.8756,-9.7559
0.89708,-9.7559
0.92685,-9.7559
0.95399,-9.7559
0.97853,-9.7559
1.00472,-9.7559
1.02984,-9.668
1.05455,-9.668
1.07904,-9.668
1.10677,-9.668
1.1308,-9.668
1.15898,-9.668
1.18337,-9.668
1.2094,-9.668
1.23244,-9.668
1.25989,-9.668
1.28703,-9.668
1.31098,-9.668
1.33925,-9.668
1.36125,-9.668
1.39013,-9.668
1.41017,-9.5801
1.43764,-9.5801
1.46335,-9.5801
1.49313,-9.5801
1.51186,-9.5801
1.54411,-9.5801
1.56995,-9.4922
1.59322,-9.4922
1.61971,-9.4922
1.6464,-9.4922
1.67001,-9.4922
1.69315,-9.4922
1.72258,-9.4922
1.74441,-9.4922
1.77553,-9.4922
1.794,-9.4922
1.82632,-9.4922
1.85264,-9.4922
1.87674,-9.4922
1.90373,-9.4922
1.92748,-9.4922
1.9538,-9.4922
1.98042,-9.4922
2.00379,-9.4922
2.02907,-9.4922
2.05752,-9.4043
2.0808,-9.4043
2.10889,-9.4043
2.1308,-9.4043
2.15887,-9.4043
2.18698,-9.4043
2.21128,-9.4043
2.23682,-9.4043
2.26227,-9.4043
2.28701,-9.4043
2.31076,-9.4043
2.34027,-9.4043
2.36417,-9.4043
2.39109,-9.4043
2.4114,-9.4043
2.44288,-9.4043
2.46927,-9.4043
2.49351,-9.4922
2.52005,-9.4922
2.54642,-9.4922
2.57305,-9.5801
2.59699,-9.5801
2.62214,-9.5801
2.64467,-9.668
2.6743,-9.668
2.69629,-9.668
2.72521,-9.7559
2.74694,-9.7559
2.77708,-9.7559
2.80287,-9.7559
2.82607,-9.7559
2.85418,-9.7559
2.87986,-9.8438
2.90527,-9.8438
2.92827,-9.8438
2.95672,-9.8438
2.97693,-9.8438
3.00837,-9.8438
3.03002,-9.9316
3.05973,-10.0195
3.08629,-10.1074
3.11147,-10.1074
3.13935,-10.1953
3.1682,-10.3711
3.19398,-10.459
3.22163,-10.6348
3.24682,-10.8105
3.27451,-10.9863
3.30182,-11.1621
3.32953,-11.25
3.356,-11.3379
3.38468,-11.4258
3.41008,-11.5137
3.43699,-11.6016
3.46092,-11.6016
3.48863,-11.6016
3.5181,-11.7773
3.5449,-11.7773
3.57115,-11.8652
3.59254,-12.041
3.62066,-12.2168
3.65216,-12.3047
3.67621,-12.3047
3.70517,-12.4805
3.73434,-12.4805
3.7614,-12.5684
3.7877,-12.5684
3.81255,-12.5684
3.8417,-12.5684
3.86855,-12.6562
3.8956,-12.6562
3.9226,-12.6562
3.93644,-12.6562
3.9751,-12.6562
4.00361,-12.6562
4.02542,-12.6562
4.05406,-12.6562
4.0843,-12.6562
4.11078,-12.5684
4.13823,-12.5684
4.16097,-12.5684
4.19268,-12.5684
4.21957,-12.5684
4.24443,-12.5684
4.27238,-12.5684
4.29212,-12.4805
4.32611,-12.4805
4.35388,-12.4805
4.37727,-12.3926
4.40799,-12.3047
4.43503,-12.2168
4.46228,-12.1289
4.48776,-12.041
4.50966,-11.9531
4.54316,-11.8652
4.57015,-11.8652
4.59459,-11.7773
4.62108,-11.6895
4.65044,-11.6016
4.67581,-11.6016
4.70519,-11.5137
4.72771,-11.5137
4.75757,-11.4258
4.7858,-11.3379
4.80786,-11.25
4.83667,-11.1621
4.86707,-11.0742
4.89088,-10.9863
4.92101,-10.8984
4.94217,-10.8105
4.97504,-10.7227
5.00216,-10.5469
5.02837,-10.2832
5.05559,-10.1074
5.08272,-9.9316
5.10818,-9.7559
5.13437,-9.668
5.15952,-9.4922
5.18541,-9.4043
5.2096,-9.3164
5.23644,-9.1406
5.25926,-9.0527
5.28676,-9.0527
5.31071,-8.9648
5.33987,-8.877
5.36616,-8.7891
5.3871,-8.7012
5.40949,-8.7012
5.44188,-8.7012
5.46752,-8.7012
5.49224,-8.7012
5.51939,-8.7012
5.54241,-8.7012
5.57035,-8.7012
5.59214,-8.6133
5.62191,-8.6133
5.64518,-8.6133
5.67345,-8.6133
5.69951,-8.6133
5.71892,-8.6133
5.74939,-8.6133
5.77415,-8.6133
5.80116,-8.6133
5.82383,-8.6133
5.85336,-8.6133
5.87519,-8.6133
5.90344,-8.6133
5.92406,-8.6133
5.95564,-8.6133
5.98267,-8.7012
6.00767,-8.7012
6.03269,-8.7891
6.05767,-8.7891
6.08426,-8.9648
6.10934,-9.0527
6.1355,-9.0527
6.1571,-9.1406
6.18412,-9.3164
6.20622,-9.3164
6.23833,-9.4043
6.25682,-9.4043
6.28972,-9.4043
6.3156,-9.4043
6.34001,-9.4043
6.36655,-9.4922
6.39257,-9.4922
6.41848,-9.4922
6.44127,-9.4922
6.46926,-9.4922
6.49011,-9.5801
6.52114,-9.668
6.54173,-9.668
6.56932,-9.668
6.59886,-9.668
6.62404,-9.668
6.65008,-9.668
6.67554,-9.7559
6.70103,-9.7559
6.72495,-9.7559
6.75183,-9.7559
6.77342,-9.8438
6.80102,-9.8438
6.82223,-9.8438
6.8543,-9.8438
6.88139,-9.9316
6.90595,-9.9316
6.93172,-10.0195
6.95791,-10.0195
6.98573,-10.0195
7.00882,-10.1074
7.03883,-10.1074
7.06701,-10.1074
7.09358,-10.1074
7.12073,-10.1074
7.14826,-10.1074
7.17421,-10.1074
7.20192,-10.1074
7.22385,-10.1074
7.25097,-10.1074
7.28198,-10.1074
7.30897,-10.1074
7.33627,-10.1074
7.36455,-10.1074
7.38926,-10.0195
7.41763,-10.0195
7.44062,-10.0195
7.47053,-10.0195
7.49766,-10.0195
7.52398,-10.0195
7.55169,-10.0195
7.57203,-10.0195
7.60687,-10.0195
7.63318,-10.0195
7.6595,-10.0195
7.68663,-10.0195
7.71413,-10.0195
7.73919,-10.0195
7.76797,-10.0195
7.78977,-10.0195
7.82153,-10.0195
7.84838,-9.9316
7.87276,-9.9316
7.89989,-9.8438
7.92187,-9.8438
7.95146,-9.8438
7.97226,-9.8438
8.00269,-9.7559
8.02429,-9.7559
8.05071,-9.7559
8.08076,-9.7559
8.10578,-9.7559
8.13155,-9.7559
8.15057,-9.7559
8.18262,-9.7559
8.20674,-9.7559
8.23373,-9.7559
8.25583,-9.7559
8.28451,-9.7559
8.30618,-9.7559
8.33675,-9.7559
8.36209,-9.7559
8.38824,-9.7559
8.41346,-9.7559
8.4386,-9.7559
8.46446,-9.7559
8.49115,-9.7559
8.51623,-9.7559
8.53935,-9.7559
8.56827,-9.7559
8.5884,-9.7559
8.61877,-9.7559
8.64004,-9.7559
8.67075,-9.7559
8.69673,-9.7559
8.72046,-9.7559
8.74756,-9.7559
8.77152,-9.7559
8.79853,-9.7559
8.82332,-9.7559
8.84936,-9.7559
8.87216,-9.7559
8.89927,-9.7559
8.92562,-9.7559
8.95295,-9.7559
8.97922,-9.7559
9.00439,-9.7559
9.03073,-9.7559
9.0553,-9.7559
9.08164,-9.7559
9.1071,-9.7559
9.13316,-9.7559
9.15797,-9.668
9.1838,-9.668
9.20658,-9.668
9.23545,-9.668
9.2624,-9.668
9.28731,-9.668
9.30514,-9.668
9.33673,-9.668
9.36411,-9.668
9.38673,-9.668
9.41549,-9.668
9.43711,-9.668
9.46665,-9.668
9.48925,-9.668
9.51556,-9.668
9.53729,-9.668
9.56973,-9.668
9.59593,-9.668
9.62118,-9.668
9.64696,-9.668
9.67087,-9.668
9.69785,-9.668
9.7214,-9.668
9.74953,-9.668
9.77349,-9.668
9.80033,-9.5801
9.81971,-9.4922
9.85216,-9.4922
9.87244,-9.4922
9.90288,-9.4922
9.92868,-9.4922
9.95421,-9.4922
9.98083,-9.4922
10.00217,-9.4922
10.03228,-9.4922
10.0541,-9.4922
10.0826,-9.4922
10.10599,-9.4922
10.1345,-9.5801
10.15433,-9.5801
10.18633,-9.5801
10.212,-9.5801
10.23655,-9.5801
10.26293,-9.5801
10.28857,-9.5801
10.31394,-9.5801
10.33745,-9.5801
10.36478,-9.5801
10.3872,-9.5801
10.41652,-9.5801
10.43833,-9.5801
10.46457,-9.5801
10.4951,-9.5801
10.52008,-9.4922
10.5457,-9.4922
10.57011,-9.4922
10.59683,-9.4922
10.61961,-9.4922
10.64796,-9.4922
10.66982,-9.4922
10.69799,-9.4922
10.71987,-9.4043
10.7515,-9.4043
10.77558,-9.4043
10.80254,-9.4043
10.8209,-9.4043
10.84811,-9.4043
10.88006,-9.4043
10.90397,-9.4043
10.93092,-9.4043
10.9553,-9.4043
10.98198,-9.4043
11.00612,-9.3164
11.03347,-9.3164
11.05269,-9.3164
11.08527,-9.2285
11.10359,-9.2285
11.13649,-9.1406
11.16201,-9.1406
11.18711,-9.1406
11.21327,-9.1406
11.23737,-9.1406
11.26474,-9.0527
11.28686,-9.0527
11.3167,-8.7012
11.33658,-7.2949
11.36791,-3.8672
11.3862,1.4941
11.4191,2.9883
11.4452,0.791
11.46875,-0.7031
11.49596,-0.2637
11.51869,0.5273
11.54733,0.5273
11.57051,0.3516
11.59803,0.1758
11.61989,0.3516
11.65048,0.3516
11.67693,0.3516
11.70014,0.2637
11.72727,0.3516
11.75246,0.3516
11.7787,0.1758
11.80209,0.3516
11.82996,0.4395
11.85408,0.3516
11.88025,0.3516
11.90251,0.3516
11.93223,0.3516
11.95588,0.3516
11.9841,0.3516
12.01038,0.3516
12.03619,0.3516
12.06125,0.3516
12.08629,0.3516
12.11215,0.3516
12.13832,0.2637
12.16373,0.2637
12.18688,0.4395
12.21413,0.4395
12.23875,0.3516
12.26738,0.2637
12.29331,0.3516
12.31785,0.3516
12.34318,0.3516
12.36897,0.3516
12.39529,0.3516
12.41874,0.3516
12.44639,0.3516
12.46881,0.4395
12.49715,0.4395
12.52267,0.2637
12.54948,0.2637
12.56938,0.4395
12.60029,0.5273
12.62644,0.3516
12.65129,0.1758
12.67733,0.3516
12.70219,0.4395
12.72838,0.3516
12.75321,0.1758
12.78009,0.2637
12.80593,0.3516
12.83051,0.4395
12.85706,0.3516
12.88254,0.2637
12.90879,0.4395
12.93333,0.4395
12.96022,0.3516
12.98565,0.3516
13.01161,0.4395
13.03644,0.3516
13.06215,0.4395
13.08607,0.4395
13.11261,0.2637
13.13547,0.3516
13.16294,0.3516
13.19214,0.4395
13.21656,0.3516
13.24246,0.3516
13.26632,0.4395
13.29353,0.4395
13.31934,0.4395
13.34551,0.4395
13.36892,0.3516
13.39631,0.3516
13.42258,0.4395
13.44836,0.4395
13.46809,0.4395
13.49982,0.3516
13.52565,0.3516
13.55098,0.3516
13.57652,0.4395
13.59839,0.3516
13.62729,0.4395
13.65017,0.4395
13.67762,0.3516
13.70196,0.3516
13.72854,0.3516
13.75003,0.3516
13.78192,0.4395
13.7997,0.4395
13.83082,0.3516
13.85827,0.3516
13.88342,0.3516
13.90942,0.3516
13.93571,0.3516
13.96109,0.4395
13.98436,0.3516
14.01093,0.3516
14.03437,0.3516
14.06465,0.3516
14.08591,0.4395
14.11677,0.3516
14.14161,0.3516
14.16657,0.4395
14.19221,0.4395
14.21644,0.4395
14.24436,0.4395
14.26844,0.3516
14.2947,0.4395
14.31685,0.4395
14.34716,0.3516
14.37271,0.4395
14.39891,0.4395
14.42402,0.3516
14.44862,0.3516
14.47513,0.3516
14.49878,0.3516
14.52701,0.3516
14.54908,0.3516
14.57823,0.4395
14.60195,0.3516
14.62869,0.4395
14.65075,0.4395
14.68044,0.3516
14.70276,0.3516
14.73219,0.4395
14.75083,0.4395
14.78336,0.4395
14.80966,0.3516
14.83365,0.3516
14.86063,0.4395
14.88461,0.3516
14.91214,0.4395
14.93785,0.4395
14.9634,0.4395
14.98632,0.4395
15.01076,0.3516
15.04015,0.3516
15.06534,0.3516
15.09185,0.4395
15.11457,0.4395
15.14246,0.4395
15.16479,0.4395
15.19403,0.3516
15.21547,0.3516
15.24321,0.4395
15.26427,0.3516
15.29778,0.4395
15.31668,0.4395
15.34877,0.3516
15.3748,0.4395
15.40001,0.3516
15.4258,0.3516
15.45016,0.4395
15.47681,0.4395
15.49916,0.3516
15.5276,0.3516
15.55022,0.3516
15.57729,0.4395
15.59954,0.3516
15.63102,0.2637
15.65697,0.4395
15.68241,0.3516
15.70788,0.3516
15.73289,0.4395
15.75938,0.3516
15.78088,0.3516
15.81068,0.3516
15.83676,0.3516
15.86,0.4395
15.88376,0.4395
15.91367,0.3516
15.93995,0.4395
15.9647,0.4395
15.99082,0.4395
16.01565,0.4395
16.04175,0.4395
16.06418,0.4395
16.09269,0.3516
16.11539,0.3516
16.14439,0.3516
16.1648,0.4395
16.19674,0.4395
16.22285,0.4395
16.24593,0.3516
16.27289,0.4395
16.29791,0.3516
16.32428,0.3516
16.34824,0.4395
16.37586,0.3516
16.3971,0.3516
16.42681,0.4395
16.4485,0.4395
16.47851,0.4395
16.501,0.4395
16.52909,0.3516
16.55608,0.4395
16.5809,0.4395
16.60694,0.3516
16.63166,0.3516
16.65795,0.4395
16.68045,0.3516
16.70923,0.3516
16.73173,0.3516
16.76112,0.3516
16.78391,0.4395
16.8124,0.3516
16.83734,0.3516
16.85862,0.4395
16.89001,0.3516
16.91376,0.3516
16.94086,0.4395
16.96377,0.3516
16.99194,0.3516
